PE UV       SUBTECH     SPECTRUM    ASCII       PEDS        4.00        
   -1
Sample6986.Sample.asc
20/11/18
18:01:56.00
20/11/18
18:01:56.00
Administrator

200.000000
1
Lambda 650
650L1409151
PerkinElmer UV WinLab 6.2.0.0741 / 1.61.00 Lambda 650

0
0
2
0
0
UV/VIS
1
1
1
150mm sphere / downward view
0
0
0
0
Fix
 
0
0.2
0
0
0
 
 
 
0
 
0
319.2
0
Front
50
 
 
 
0
0
0
 
0
 
 
 
0
 
 
0
0
0
0
0
 
 
 
 
0
0


0
0
#HDR
-1
-1
#GR
nm
%R
1.0
0.0
850.000000
-1.000000
651
8
85.240048
0.676397
#DATA
850.000000	85.152854
849.000000	85.240048
848.000000	83.976770
847.000000	84.622006
846.000000	83.580732
845.000000	83.885290
844.000000	84.336147
843.000000	84.342614
842.000000	84.768179
841.000000	84.100847
840.000000	83.777128
839.000000	84.293094
838.000000	84.032500
837.000000	83.599728
836.000000	84.010240
835.000000	83.771078
834.000000	83.884756
833.000000	83.850472
832.000000	83.756448
831.000000	83.759189
830.000000	83.863295
829.000000	83.984433
828.000000	83.342233
827.000000	83.560285
826.000000	83.415759
825.000000	83.690203
824.000000	83.756268
823.000000	83.456997
822.000000	83.510801
821.000000	83.732627
820.000000	83.665844
819.000000	83.462438
818.000000	83.197674
817.000000	83.265583
816.000000	82.959433
815.000000	83.192695
814.000000	82.983383
813.000000	83.007106
812.000000	82.936737
811.000000	83.139968
810.000000	82.944261
809.000000	83.074727
808.000000	82.863861
807.000000	82.647000
806.000000	82.760522
805.000000	82.610563
804.000000	82.766060
803.000000	82.682002
802.000000	82.751880
801.000000	82.684263
800.000000	82.536875
799.000000	82.396974
798.000000	82.492453
797.000000	82.416913
796.000000	82.437190
795.000000	82.395426
794.000000	82.218073
793.000000	82.163861
792.000000	81.942233
791.000000	81.939154
790.000000	82.070303
789.000000	82.163087
788.000000	81.992475
787.000000	81.953502
786.000000	81.906309
785.000000	82.007836
784.000000	81.843315
783.000000	81.746693
782.000000	81.789318
781.000000	81.461593
780.000000	81.775905
779.000000	81.800241
778.000000	81.505158
777.000000	81.577063
776.000000	81.381178
775.000000	81.354204
774.000000	81.148899
773.000000	81.331342
772.000000	81.373030
771.000000	81.368555
770.000000	81.122758
769.000000	81.042008
768.000000	80.977361
767.000000	81.085487
766.000000	80.933445
765.000000	80.876777
764.000000	80.903179
763.000000	80.849213
762.000000	80.866088
761.000000	80.809322
760.000000	80.785784
759.000000	80.760948
758.000000	80.620632
757.000000	80.421493
756.000000	80.434099
755.000000	80.486553
754.000000	80.353539
753.000000	80.341298
752.000000	80.327490
751.000000	80.313745
750.000000	80.161849
749.000000	80.050036
748.000000	80.128851
747.000000	80.067523
746.000000	80.075751
745.000000	80.076855
744.000000	79.970059
743.000000	79.845794
742.000000	79.800357
741.000000	79.650645
740.000000	79.704228
739.000000	79.686656
738.000000	79.606555
737.000000	79.568959
736.000000	79.397549
735.000000	79.260465
734.000000	79.195260
733.000000	79.191799
732.000000	79.220011
731.000000	79.178800
730.000000	79.100013
729.000000	79.061401
728.000000	79.059927
727.000000	79.023361
726.000000	79.040778
725.000000	79.009877
724.000000	78.895259
723.000000	78.792514
722.000000	78.702082
721.000000	78.702692
720.000000	78.598278
719.000000	78.438019
718.000000	78.536372
717.000000	78.546692
716.000000	78.450935
715.000000	78.301190
714.000000	78.180807
713.000000	78.144407
712.000000	78.013748
711.000000	77.986151
710.000000	77.953507
709.000000	77.959377
708.000000	77.930408
707.000000	77.795566
706.000000	77.676069
705.000000	77.640641
704.000000	77.548496
703.000000	77.510646
702.000000	77.516536
701.000000	77.433635
700.000000	77.302119
699.000000	77.273990
698.000000	77.208940
697.000000	77.048159
696.000000	76.998433
695.000000	76.932585
694.000000	76.928525
693.000000	76.861860
692.000000	76.784288
691.000000	76.846744
690.000000	76.745710
689.000000	76.609897
688.000000	76.559535
687.000000	76.472514
686.000000	76.374616
685.000000	76.367028
684.000000	76.270488
683.000000	76.272415
682.000000	76.193914
681.000000	76.060931
680.000000	76.017657
679.000000	75.954973
678.000000	75.842803
677.000000	75.757105
676.000000	75.659288
675.000000	75.550117
674.000000	75.598564
673.000000	75.579580
672.000000	75.480868
671.000000	75.395711
670.000000	75.337904
669.000000	75.227097
668.000000	75.152173
667.000000	75.075641
666.000000	74.995080
665.000000	75.020609
664.000000	74.915578
663.000000	74.813700
662.000000	74.731925
661.000000	74.652339
660.000000	74.519933
659.000000	74.469765
658.000000	74.459125
657.000000	74.393496
656.000000	74.285034
655.000000	74.172650
654.000000	74.077357
653.000000	74.069085
652.000000	73.958372
651.000000	73.916195
650.000000	73.838072
649.000000	73.746501
648.000000	73.617576
647.000000	73.550436
646.000000	73.482340
645.000000	73.364833
644.000000	73.369401
643.000000	73.298676
642.000000	73.247683
641.000000	73.143457
640.000000	73.014457
639.000000	72.991791
638.000000	72.921041
637.000000	72.720322
636.000000	72.692787
635.000000	72.626364
634.000000	72.536302
633.000000	72.515747
632.000000	72.390004
631.000000	72.221948
630.000000	72.206313
629.000000	72.109198
628.000000	71.990755
627.000000	71.869828
626.000000	71.884467
625.000000	71.844368
624.000000	71.670176
623.000000	71.488856
622.000000	71.351650
621.000000	71.322876
620.000000	71.302477
619.000000	71.199101
618.000000	71.144599
617.000000	71.005097
616.000000	70.962922
615.000000	70.824199
614.000000	70.722258
613.000000	70.597450
612.000000	70.591170
611.000000	70.422056
610.000000	70.350102
609.000000	70.257796
608.000000	70.142547
607.000000	70.002260
606.000000	69.948421
605.000000	69.913204
604.000000	69.729165
603.000000	69.714819
602.000000	69.558093
601.000000	69.442694
600.000000	69.450295
599.000000	69.289745
598.000000	69.137729
597.000000	69.071434
596.000000	68.987196
595.000000	68.808369
594.000000	68.781791
593.000000	68.604595
592.000000	68.558056
591.000000	68.421279
590.000000	68.263122
589.000000	68.242822
588.000000	68.060435
587.000000	67.958642
586.000000	67.859956
585.000000	67.718509
584.000000	67.657796
583.000000	67.503340
582.000000	67.383746
581.000000	67.206158
580.000000	67.158218
579.000000	67.114834
578.000000	66.917510
577.000000	66.754913
576.000000	66.642878
575.000000	66.542835
574.000000	66.442124
573.000000	66.321161
572.000000	66.172534
571.000000	66.028592
570.000000	65.921958
569.000000	65.726630
568.000000	65.598264
567.000000	65.442040
566.000000	65.289884
565.000000	65.243478
564.000000	65.135521
563.000000	64.964866
562.000000	64.780632
561.000000	64.597524
560.000000	64.531673
559.000000	64.384315
558.000000	64.223160
557.000000	64.055236
556.000000	63.853671
555.000000	63.739541
554.000000	63.644243
553.000000	63.545517
552.000000	63.353636
551.000000	63.224649
550.000000	63.037226
549.000000	62.922237
548.000000	62.713611
547.000000	62.665903
546.000000	62.483535
545.000000	62.305951
544.000000	62.203309
543.000000	62.011837
542.000000	61.826744
541.000000	61.687794
540.000000	61.556207
539.000000	61.437058
538.000000	61.304541
537.000000	61.088573
536.000000	60.899754
535.000000	60.830740
534.000000	60.643181
533.000000	60.502152
532.000000	60.344744
531.000000	60.184784
530.000000	60.005179
529.000000	59.889952
528.000000	59.715609
527.000000	59.547583
526.000000	59.395420
525.000000	59.228822
524.000000	59.090010
523.000000	58.936003
522.000000	58.778293
521.000000	58.609091
520.000000	58.451597
519.000000	58.272184
518.000000	58.070252
517.000000	57.916387
516.000000	57.746717
515.000000	57.593264
514.000000	57.416551
513.000000	57.243272
512.000000	57.082131
511.000000	56.935539
510.000000	56.742745
509.000000	56.573487
508.000000	56.408694
507.000000	56.248443
506.000000	56.066610
505.000000	55.903981
504.000000	55.727314
503.000000	55.529242
502.000000	55.392525
501.000000	55.208758
500.000000	55.015424
499.000000	54.833704
498.000000	54.684473
497.000000	54.487169
496.000000	54.302925
495.000000	54.093638
494.000000	53.893253
493.000000	53.765459
492.000000	53.538573
491.000000	53.321114
490.000000	53.227641
489.000000	53.061395
488.000000	52.814459
487.000000	52.655157
486.000000	52.461186
485.000000	52.227291
484.000000	52.070130
483.000000	51.886838
482.000000	51.717314
481.000000	51.494260
480.000000	51.346004
479.000000	51.176044
478.000000	51.001320
477.000000	50.854775
476.000000	50.612307
475.000000	50.431369
474.000000	50.270767
473.000000	50.099200
472.000000	49.932257
471.000000	49.747149
470.000000	49.557441
469.000000	49.388371
468.000000	49.194654
467.000000	48.991202
466.000000	48.838235
465.000000	48.664818
464.000000	48.472265
463.000000	48.263874
462.000000	48.108939
461.000000	47.884011
460.000000	47.697456
459.000000	47.542053
458.000000	47.336608
457.000000	47.098074
456.000000	46.871826
455.000000	46.650948
454.000000	46.463074
453.000000	46.265067
452.000000	46.061506
451.000000	45.826264
450.000000	45.559732
449.000000	45.307147
448.000000	45.086197
447.000000	44.823375
446.000000	44.552175
445.000000	44.315608
444.000000	44.091211
443.000000	43.855463
442.000000	43.581110
441.000000	43.330160
440.000000	43.075109
439.000000	42.819332
438.000000	42.550350
437.000000	42.306843
436.000000	42.056076
435.000000	41.769727
434.000000	41.503798
433.000000	41.213623
432.000000	40.894261
431.000000	40.639488
430.000000	40.428512
429.000000	40.129239
428.000000	39.820080
427.000000	39.575489
426.000000	39.330460
425.000000	39.054763
424.000000	38.779506
423.000000	38.504119
422.000000	38.246801
421.000000	37.984047
420.000000	37.728231
419.000000	37.475969
418.000000	37.182247
417.000000	36.913112
416.000000	36.662112
415.000000	36.413590
414.000000	36.164970
413.000000	35.868550
412.000000	35.604002
411.000000	35.335603
410.000000	35.063807
409.000000	34.797378
408.000000	34.510249
407.000000	34.225398
406.000000	33.963845
405.000000	33.709097
404.000000	33.446391
403.000000	33.172603
402.000000	32.862668
401.000000	32.607375
400.000000	32.335349
399.000000	32.044151
398.000000	31.751798
397.000000	31.480335
396.000000	31.181242
395.000000	30.865289
394.000000	30.565908
393.000000	30.204343
392.000000	29.918591
391.000000	29.622479
390.000000	29.240147
389.000000	28.911505
388.000000	28.654262
387.000000	28.372495
386.000000	28.059636
385.000000	27.726696
384.000000	27.358963
383.000000	27.036007
382.000000	26.762883
381.000000	26.447677
380.000000	26.112275
379.000000	25.831737
378.000000	25.516746
377.000000	25.045080
376.000000	24.700830
375.000000	24.460337
374.000000	24.134186
373.000000	23.857261
372.000000	23.627413
371.000000	23.370040
370.000000	23.027847
369.000000	22.822274
368.000000	22.651613
367.000000	22.467724
366.000000	22.252599
365.000000	21.966577
364.000000	21.700306
363.000000	21.552656
362.000000	21.323881
361.000000	21.089245
360.000000	20.946056
359.000000	20.686460
358.000000	20.432211
357.000000	20.228901
356.000000	19.967904
355.000000	19.761169
354.000000	19.620610
353.000000	19.415897
352.000000	19.194264
351.000000	18.889482
350.000000	18.727564
349.000000	18.527204
348.000000	18.319652
347.000000	18.087041
346.000000	17.850704
345.000000	17.706241
344.000000	17.461161
343.000000	17.186430
342.000000	17.063294
341.000000	16.831048
340.000000	16.653871
339.000000	16.408992
338.000000	16.178959
337.000000	15.921908
336.000000	15.713388
335.000000	15.546794
334.000000	15.276713
333.000000	15.095421
332.000000	14.847757
331.000000	14.617392
330.000000	14.376043
329.000000	14.125991
328.000000	13.921192
327.000000	13.623659
326.000000	13.455098
325.000000	13.398253
324.000000	12.864503
323.000000	12.715840
322.000000	12.582550
321.000000	12.342192
320.000000	12.014061
319.000000	11.833152
318.000000	11.554444
317.000000	11.275656
316.000000	10.992370
315.000000	10.823086
314.000000	10.533636
313.000000	10.343541
312.000000	10.081920
311.000000	9.881435
310.000000	9.630402
309.000000	9.473633
308.000000	9.265308
307.000000	9.067979
306.000000	8.789457
305.000000	8.531819
304.000000	8.372175
303.000000	8.219778
302.000000	7.971944
301.000000	7.828819
300.000000	7.569615
299.000000	7.380432
298.000000	7.279108
297.000000	6.996639
296.000000	6.738603
295.000000	6.667775
294.000000	6.446898
293.000000	6.274999
292.000000	6.097342
291.000000	5.925351
290.000000	5.803128
289.000000	5.645684
288.000000	5.533756
287.000000	5.311864
286.000000	5.174830
285.000000	4.914113
284.000000	4.845413
283.000000	4.794283
282.000000	4.543966
281.000000	4.459133
280.000000	4.408105
279.000000	4.235694
278.000000	4.104794
277.000000	3.961416
276.000000	3.911204
275.000000	3.797005
274.000000	3.713038
273.000000	3.631209
272.000000	3.522717
271.000000	3.399677
270.000000	3.318179
269.000000	3.189540
268.000000	3.132886
267.000000	3.029976
266.000000	3.014078
265.000000	2.932320
264.000000	2.914565
263.000000	2.875437
262.000000	2.724877
261.000000	2.795922
260.000000	2.684549
259.000000	2.666684
258.000000	2.622113
257.000000	2.558087
256.000000	2.417177
255.000000	2.497630
254.000000	2.441204
253.000000	2.440697
252.000000	2.355561
251.000000	2.329687
250.000000	2.289057
249.000000	2.294515
248.000000	2.196879
247.000000	2.176561
246.000000	2.118183
245.000000	2.100885
244.000000	2.106681
243.000000	2.055747
242.000000	2.018444
241.000000	2.045220
240.000000	1.955973
239.000000	1.924620
238.000000	1.909305
237.000000	1.839544
236.000000	1.810529
235.000000	1.802130
234.000000	1.795793
233.000000	1.753779
232.000000	1.616952
231.000000	1.522329
230.000000	1.481979
229.000000	1.362672
228.000000	1.302175
227.000000	1.260539
226.000000	1.173120
225.000000	1.103740
224.000000	1.187667
223.000000	1.093849
222.000000	1.063385
221.000000	1.014271
220.000000	0.865666
219.000000	0.780913
218.000000	0.788901
217.000000	0.800146
216.000000	0.750979
215.000000	0.832206
214.000000	0.800801
213.000000	0.676397
212.000000	0.777243
211.000000	0.931536
210.000000	0.855260
209.000000	1.043911
208.000000	0.933407
207.000000	0.927654
206.000000	1.152870
205.000000	1.274542
204.000000	1.591524
203.000000	1.709781
202.000000	2.247001
201.000000	2.343898
200.000000	2.521526
