PE UV       SUBTECH     SPECTRUM    ASCII       PEDS        4.00        
   -1
Sample6987.Sample.asc
20/11/18
18:09:19.00
20/11/18
18:09:19.00
Administrator

200.000000
1
Lambda 650
650L1409151
PerkinElmer UV WinLab 6.2.0.0741 / 1.61.00 Lambda 650

0
0
2
0
0
UV/VIS
1
1
1
150mm sphere / downward view
0
0
0
0
Fix
 
0
0.2
0
0
0
 
 
 
0
 
0
319.2
0
Front
50
 
 
 
0
0
0
 
0
 
 
 
0
 
 
0
0
0
0
0
 
 
 
 
0
0


0
0
#HDR
-1
-1
#GR
nm
%R
1.0
0.0
850.000000
-1.000000
651
8
90.949685
0.079561
#DATA
850.000000	89.860822
849.000000	90.381631
848.000000	89.613119
847.000000	90.762837
846.000000	90.949685
845.000000	90.069375
844.000000	90.386263
843.000000	90.616025
842.000000	90.259193
841.000000	90.137768
840.000000	90.254555
839.000000	90.073660
838.000000	90.361058
837.000000	89.305312
836.000000	89.963093
835.000000	90.223643
834.000000	89.995864
833.000000	90.016559
832.000000	90.126112
831.000000	90.030323
830.000000	90.155886
829.000000	90.046733
828.000000	89.609113
827.000000	89.667879
826.000000	89.639321
825.000000	89.598683
824.000000	89.804208
823.000000	89.593680
822.000000	89.590134
821.000000	89.978944
820.000000	89.804090
819.000000	89.923804
818.000000	89.700977
817.000000	89.594069
816.000000	89.229050
815.000000	89.446903
814.000000	89.316656
813.000000	89.173441
812.000000	89.325600
811.000000	89.423082
810.000000	89.108553
809.000000	89.305090
808.000000	89.139830
807.000000	89.140884
806.000000	89.002600
805.000000	88.857365
804.000000	89.013038
803.000000	89.115393
802.000000	89.108893
801.000000	89.024897
800.000000	88.974296
799.000000	89.061335
798.000000	88.949292
797.000000	88.901493
796.000000	88.908830
795.000000	88.760315
794.000000	88.728613
793.000000	88.811323
792.000000	88.671961
791.000000	88.582593
790.000000	88.573672
789.000000	88.591816
788.000000	88.642502
787.000000	88.728453
786.000000	88.463615
785.000000	88.618601
784.000000	88.383111
783.000000	88.313185
782.000000	88.371650
781.000000	88.204533
780.000000	88.358170
779.000000	88.472729
778.000000	88.270618
777.000000	88.077098
776.000000	88.039089
775.000000	88.114689
774.000000	87.879729
773.000000	87.983391
772.000000	88.071015
771.000000	88.015519
770.000000	87.840586
769.000000	87.740367
768.000000	87.722210
767.000000	87.775126
766.000000	87.736776
765.000000	87.726439
764.000000	87.723842
763.000000	87.557144
762.000000	87.617975
761.000000	87.605887
760.000000	87.529998
759.000000	87.562639
758.000000	87.451385
757.000000	87.403665
756.000000	87.272447
755.000000	87.229146
754.000000	87.110393
753.000000	87.198322
752.000000	87.088456
751.000000	87.190881
750.000000	87.025607
749.000000	86.978947
748.000000	86.988171
747.000000	87.087713
746.000000	87.117150
745.000000	86.983715
744.000000	86.892660
743.000000	86.903867
742.000000	86.807272
741.000000	86.657159
740.000000	86.620589
739.000000	86.494034
738.000000	86.399587
737.000000	86.430870
736.000000	86.336719
735.000000	86.337826
734.000000	86.218707
733.000000	86.197924
732.000000	86.269705
731.000000	86.261221
730.000000	86.145089
729.000000	86.072094
728.000000	85.978824
727.000000	85.873614
726.000000	85.958426
725.000000	85.962124
724.000000	85.787966
723.000000	85.689998
722.000000	85.715700
721.000000	85.724995
720.000000	85.640903
719.000000	85.485475
718.000000	85.471547
717.000000	85.499341
716.000000	85.464559
715.000000	85.371296
714.000000	85.300025
713.000000	85.222805
712.000000	85.080622
711.000000	85.154714
710.000000	85.115567
709.000000	85.038904
708.000000	85.027298
707.000000	84.898023
706.000000	84.762451
705.000000	84.726562
704.000000	84.682350
703.000000	84.591563
702.000000	84.548025
701.000000	84.502713
700.000000	84.431118
699.000000	84.396751
698.000000	84.348751
697.000000	84.205904
696.000000	84.150232
695.000000	84.199264
694.000000	84.110916
693.000000	84.017825
692.000000	83.985288
691.000000	84.010760
690.000000	83.812477
689.000000	83.648422
688.000000	83.688635
687.000000	83.579073
686.000000	83.455447
685.000000	83.489910
684.000000	83.401520
683.000000	83.343717
682.000000	83.306952
681.000000	83.298468
680.000000	83.211846
679.000000	83.070436
678.000000	82.953825
677.000000	82.931494
676.000000	82.838317
675.000000	82.740842
674.000000	82.741818
673.000000	82.679062
672.000000	82.672989
671.000000	82.586327
670.000000	82.465128
669.000000	82.388562
668.000000	82.313647
667.000000	82.232574
666.000000	82.259522
665.000000	82.144418
664.000000	81.999069
663.000000	81.902990
662.000000	81.847838
661.000000	81.803047
660.000000	81.753890
659.000000	81.666394
658.000000	81.569729
657.000000	81.519338
656.000000	81.370125
655.000000	81.288739
654.000000	81.231200
653.000000	81.050767
652.000000	81.029013
651.000000	81.010878
650.000000	80.977437
649.000000	80.868894
648.000000	80.754705
647.000000	80.666357
646.000000	80.580784
645.000000	80.464143
644.000000	80.434352
643.000000	80.337094
642.000000	80.280354
641.000000	80.131564
640.000000	80.069204
639.000000	80.027496
638.000000	79.910930
637.000000	79.735161
636.000000	79.691533
635.000000	79.624140
634.000000	79.541947
633.000000	79.490231
632.000000	79.349719
631.000000	79.150957
630.000000	79.059579
629.000000	79.005508
628.000000	78.947678
627.000000	78.859554
626.000000	78.784349
625.000000	78.746182
624.000000	78.572275
623.000000	78.419981
622.000000	78.245644
621.000000	78.186745
620.000000	78.105666
619.000000	77.972120
618.000000	77.829033
617.000000	77.758819
616.000000	77.684139
615.000000	77.566240
614.000000	77.440994
613.000000	77.267611
612.000000	77.247077
611.000000	77.060239
610.000000	76.973915
609.000000	76.844092
608.000000	76.742728
607.000000	76.602097
606.000000	76.559296
605.000000	76.401178
604.000000	76.203174
603.000000	76.100076
602.000000	75.956751
601.000000	75.850846
600.000000	75.728725
599.000000	75.570554
598.000000	75.438113
597.000000	75.349490
596.000000	75.216470
595.000000	75.087182
594.000000	74.939684
593.000000	74.774032
592.000000	74.719092
591.000000	74.504964
590.000000	74.395970
589.000000	74.206792
588.000000	74.094790
587.000000	73.926683
586.000000	73.782367
585.000000	73.617600
584.000000	73.508863
583.000000	73.321916
582.000000	73.178328
581.000000	72.954161
580.000000	72.854726
579.000000	72.756316
578.000000	72.526680
577.000000	72.357805
576.000000	72.223998
575.000000	72.002555
574.000000	71.868484
573.000000	71.717860
572.000000	71.488609
571.000000	71.370881
570.000000	71.145447
569.000000	71.003414
568.000000	70.812093
567.000000	70.587275
566.000000	70.379620
565.000000	70.302476
564.000000	70.101688
563.000000	69.883338
562.000000	69.643379
561.000000	69.430814
560.000000	69.331516
559.000000	69.094684
558.000000	68.874295
557.000000	68.645578
556.000000	68.462947
555.000000	68.228864
554.000000	68.135449
553.000000	67.889921
552.000000	67.682603
551.000000	67.450182
550.000000	67.214854
549.000000	67.016760
548.000000	66.750384
547.000000	66.639234
546.000000	66.358083
545.000000	66.111623
544.000000	65.952101
543.000000	65.686028
542.000000	65.416209
541.000000	65.234064
540.000000	65.043241
539.000000	64.765076
538.000000	64.542248
537.000000	64.273037
536.000000	64.010428
535.000000	63.801920
534.000000	63.585013
533.000000	63.289862
532.000000	63.048491
531.000000	62.833313
530.000000	62.533063
529.000000	62.319707
528.000000	62.017093
527.000000	61.790053
526.000000	61.566016
525.000000	61.271693
524.000000	61.012726
523.000000	60.786686
522.000000	60.500621
521.000000	60.192598
520.000000	59.937018
519.000000	59.643786
518.000000	59.376801
517.000000	59.083683
516.000000	58.825446
515.000000	58.547353
514.000000	58.255296
513.000000	57.978697
512.000000	57.678017
511.000000	57.391914
510.000000	57.109017
509.000000	56.839677
508.000000	56.557349
507.000000	56.247561
506.000000	55.965338
505.000000	55.680035
504.000000	55.369342
503.000000	55.049528
502.000000	54.801447
501.000000	54.521133
500.000000	54.203645
499.000000	53.910595
498.000000	53.618422
497.000000	53.308269
496.000000	53.011642
495.000000	52.661896
494.000000	52.371076
493.000000	52.088162
492.000000	51.815489
491.000000	51.479845
490.000000	51.184833
489.000000	50.904480
488.000000	50.585153
487.000000	50.298400
486.000000	49.985039
485.000000	49.693461
484.000000	49.384131
483.000000	49.062602
482.000000	48.778308
481.000000	48.489897
480.000000	48.244652
479.000000	47.934958
478.000000	47.676085
477.000000	47.411493
476.000000	47.111677
475.000000	46.796924
474.000000	46.523077
473.000000	46.272132
472.000000	45.979436
471.000000	45.678094
470.000000	45.393393
469.000000	45.105218
468.000000	44.845096
467.000000	44.525730
466.000000	44.231009
465.000000	43.968573
464.000000	43.674272
463.000000	43.334450
462.000000	43.045157
461.000000	42.736852
460.000000	42.429548
459.000000	42.126290
458.000000	41.793201
457.000000	41.414273
456.000000	41.091591
455.000000	40.734231
454.000000	40.382139
453.000000	40.015418
452.000000	39.671008
451.000000	39.287534
450.000000	38.879677
449.000000	38.471799
448.000000	38.105868
447.000000	37.735278
446.000000	37.326829
445.000000	36.909555
444.000000	36.493712
443.000000	36.066653
442.000000	35.654758
441.000000	35.235369
440.000000	34.779236
439.000000	34.371606
438.000000	33.965503
437.000000	33.484724
436.000000	33.024981
435.000000	32.591390
434.000000	32.129334
433.000000	31.674804
432.000000	31.220451
431.000000	30.764127
430.000000	30.339316
429.000000	29.893319
428.000000	29.419200
427.000000	28.966646
426.000000	28.528806
425.000000	28.080107
424.000000	27.625379
423.000000	27.194186
422.000000	26.785771
421.000000	26.362820
420.000000	25.934328
419.000000	25.497692
418.000000	25.050317
417.000000	24.665667
416.000000	24.266995
415.000000	23.825948
414.000000	23.422742
413.000000	23.010380
412.000000	22.595693
411.000000	22.196677
410.000000	21.778092
409.000000	21.375145
408.000000	20.959449
407.000000	20.556465
406.000000	20.157565
405.000000	19.762289
404.000000	19.356158
403.000000	18.947227
402.000000	18.552964
401.000000	18.173589
400.000000	17.784406
399.000000	17.399967
398.000000	17.011705
397.000000	16.593157
396.000000	16.195226
395.000000	15.848719
394.000000	15.463133
393.000000	15.052422
392.000000	14.706496
391.000000	14.335258
390.000000	13.940750
389.000000	13.566222
388.000000	13.212124
387.000000	12.866110
386.000000	12.494057
385.000000	12.124641
384.000000	11.780823
383.000000	11.479976
382.000000	11.151024
381.000000	10.839324
380.000000	10.529321
379.000000	10.192295
378.000000	9.878539
377.000000	9.338765
376.000000	9.027908
375.000000	8.891950
374.000000	8.670004
373.000000	8.442651
372.000000	8.153533
371.000000	7.940265
370.000000	7.720706
369.000000	7.533702
368.000000	7.314465
367.000000	7.097069
366.000000	6.906511
365.000000	6.701519
364.000000	6.502425
363.000000	6.329202
362.000000	6.149502
361.000000	5.957171
360.000000	5.816628
359.000000	5.648736
358.000000	5.514488
357.000000	5.367290
356.000000	5.196147
355.000000	5.073780
354.000000	4.987684
353.000000	4.830656
352.000000	4.669619
351.000000	4.531984
350.000000	4.429280
349.000000	4.320952
348.000000	4.222603
347.000000	4.118309
346.000000	4.013520
345.000000	3.909998
344.000000	3.796144
343.000000	3.706160
342.000000	3.590759
341.000000	3.506468
340.000000	3.446263
339.000000	3.394853
338.000000	3.323392
337.000000	3.150848
336.000000	3.115484
335.000000	3.062676
334.000000	2.961474
333.000000	2.825720
332.000000	2.715643
331.000000	2.739335
330.000000	2.574043
329.000000	2.521594
328.000000	2.505715
327.000000	2.506614
326.000000	2.376820
325.000000	2.361893
324.000000	2.220715
323.000000	2.144207
322.000000	2.224605
321.000000	2.115584
320.000000	2.095352
319.000000	1.991051
318.000000	1.850283
317.000000	1.705281
316.000000	1.705897
315.000000	1.645134
314.000000	1.572863
313.000000	1.534614
312.000000	1.481256
311.000000	1.449996
310.000000	1.397419
309.000000	1.301659
308.000000	1.336136
307.000000	1.287518
306.000000	1.246229
305.000000	1.172144
304.000000	1.149834
303.000000	1.154330
302.000000	1.110084
301.000000	1.063962
300.000000	0.966320
299.000000	0.973250
298.000000	0.984895
297.000000	0.925891
296.000000	0.899874
295.000000	0.872105
294.000000	0.830492
293.000000	0.820071
292.000000	0.781666
291.000000	0.764277
290.000000	0.763507
289.000000	0.669275
288.000000	0.673057
287.000000	0.624022
286.000000	0.674662
285.000000	0.570369
284.000000	0.573104
283.000000	0.596624
282.000000	0.582097
281.000000	0.555456
280.000000	0.511479
279.000000	0.495865
278.000000	0.521458
277.000000	0.480454
276.000000	0.437513
275.000000	0.456178
274.000000	0.413733
273.000000	0.435708
272.000000	0.402037
271.000000	0.379875
270.000000	0.373696
269.000000	0.362545
268.000000	0.360593
267.000000	0.311940
266.000000	0.325606
265.000000	0.265671
264.000000	0.349725
263.000000	0.306106
262.000000	0.334748
261.000000	0.270381
260.000000	0.255973
259.000000	0.256120
258.000000	0.279455
257.000000	0.262157
256.000000	0.260450
255.000000	0.217994
254.000000	0.210656
253.000000	0.194580
252.000000	0.257436
251.000000	0.248482
250.000000	0.163282
249.000000	0.167361
248.000000	0.183750
247.000000	0.175380
246.000000	0.208595
245.000000	0.154117
244.000000	0.126665
243.000000	0.079561
242.000000	0.147970
241.000000	0.137336
240.000000	0.194798
239.000000	0.155615
238.000000	0.140928
237.000000	0.128076
236.000000	0.164696
235.000000	0.169027
234.000000	0.145350
233.000000	0.132323
232.000000	0.190230
231.000000	0.150866
230.000000	0.141442
229.000000	0.204158
228.000000	0.205193
227.000000	0.173173
226.000000	0.279525
225.000000	0.334257
224.000000	0.300175
223.000000	0.199198
222.000000	0.195941
221.000000	0.227054
220.000000	0.221181
219.000000	0.204125
218.000000	0.309106
217.000000	0.403426
216.000000	0.475689
215.000000	0.452791
214.000000	0.493026
213.000000	0.426873
212.000000	0.359810
211.000000	0.522775
210.000000	0.708808
209.000000	0.712177
208.000000	0.931867
207.000000	1.193975
206.000000	0.970626
205.000000	1.028350
204.000000	1.130904
203.000000	1.682257
202.000000	2.361887
201.000000	2.562222
200.000000	2.435601
