PE UV       SUBTECH     SPECTRUM    ASCII       PEDS        4.00        
   -1
Sample6985.Sample.asc
20/11/18
17:54:15.00
20/11/18
17:54:15.00
Administrator

200.000000
1
Lambda 650
650L1409151
PerkinElmer UV WinLab 6.2.0.0741 / 1.61.00 Lambda 650

0
0
2
0
0
UV/VIS
1
1
1
150mm sphere / downward view
0
0
0
0
Fix
 
0
0.2
0
0
0
 
 
 
0
 
0
319.2
0
Front
50
 
 
 
0
0
0
 
0
 
 
 
0
 
 
0
0
0
0
0
 
 
 
 
0
0


0
0
#HDR
-1
-1
#GR
nm
%R
1.0
0.0
850.000000
-1.000000
651
8
100.632235
98.859820
#DATA
850.000000	100.632235
849.000000	100.421408
848.000000	100.053931
847.000000	99.687668
846.000000	99.718338
845.000000	99.584771
844.000000	100.270380
843.000000	99.708608
842.000000	99.741391
841.000000	99.342933
840.000000	99.598163
839.000000	100.575734
838.000000	99.700014
837.000000	99.518546
836.000000	99.825951
835.000000	100.055880
834.000000	100.295676
833.000000	99.890459
832.000000	100.011443
831.000000	99.974373
830.000000	100.237136
829.000000	99.723730
828.000000	99.685415
827.000000	99.911117
826.000000	99.747169
825.000000	100.314474
824.000000	100.275440
823.000000	100.224503
822.000000	99.724121
821.000000	100.404034
820.000000	100.443642
819.000000	100.376636
818.000000	100.340169
817.000000	100.158016
816.000000	99.758478
815.000000	100.018333
814.000000	99.990851
813.000000	99.539198
812.000000	99.756017
811.000000	100.157898
810.000000	99.864228
809.000000	100.011904
808.000000	100.042223
807.000000	99.658543
806.000000	99.924129
805.000000	99.809469
804.000000	100.133066
803.000000	99.947089
802.000000	100.174416
801.000000	99.853311
800.000000	99.736445
799.000000	99.818108
798.000000	100.019172
797.000000	99.995840
796.000000	99.834318
795.000000	100.070257
794.000000	99.793844
793.000000	99.912827
792.000000	99.828924
791.000000	99.893176
790.000000	99.865877
789.000000	99.997064
788.000000	99.994530
787.000000	100.086058
786.000000	99.989061
785.000000	100.086245
784.000000	99.915168
783.000000	99.733390
782.000000	99.957235
781.000000	99.938288
780.000000	99.932162
779.000000	100.136363
778.000000	99.933602
777.000000	99.938702
776.000000	100.000203
775.000000	99.949259
774.000000	99.820399
773.000000	100.132832
772.000000	100.055249
771.000000	99.874427
770.000000	99.689590
769.000000	99.793469
768.000000	99.965993
767.000000	100.115805
766.000000	100.010235
765.000000	99.987841
764.000000	100.114635
763.000000	100.051808
762.000000	100.045223
761.000000	99.980939
760.000000	99.929739
759.000000	100.038867
758.000000	99.922175
757.000000	99.933090
756.000000	99.919806
755.000000	99.828897
754.000000	99.809638
753.000000	99.993504
752.000000	99.980618
751.000000	100.069962
750.000000	100.009641
749.000000	99.959724
748.000000	99.998883
747.000000	100.067076
746.000000	100.226358
745.000000	100.202817
744.000000	100.038926
743.000000	99.989329
742.000000	99.990036
741.000000	99.920305
740.000000	100.027874
739.000000	100.066862
738.000000	99.912075
737.000000	99.966110
736.000000	99.939165
735.000000	99.816998
734.000000	99.883729
733.000000	99.877474
732.000000	99.894778
731.000000	99.891320
730.000000	99.956886
729.000000	100.040674
728.000000	99.962997
727.000000	99.855085
726.000000	99.936954
725.000000	99.953735
724.000000	99.965180
723.000000	99.915607
722.000000	99.915400
721.000000	100.000715
720.000000	100.023493
719.000000	99.932106
718.000000	100.067865
717.000000	100.128461
716.000000	100.058409
715.000000	100.071202
714.000000	99.993966
713.000000	99.889970
712.000000	99.766949
711.000000	99.927143
710.000000	100.035410
709.000000	100.073415
708.000000	100.105564
707.000000	100.055209
706.000000	100.022119
705.000000	100.028472
704.000000	100.000307
703.000000	100.000000
702.000000	100.002665
701.000000	99.957556
700.000000	99.892690
699.000000	99.849028
698.000000	99.874598
697.000000	99.878465
696.000000	99.819074
695.000000	99.904703
694.000000	99.941799
693.000000	99.865038
692.000000	99.900636
691.000000	99.979142
690.000000	99.919772
689.000000	99.882368
688.000000	99.892198
687.000000	99.845628
686.000000	99.832403
685.000000	99.985714
684.000000	99.974514
683.000000	100.018197
682.000000	100.045563
681.000000	100.001234
680.000000	100.020682
679.000000	99.923481
678.000000	99.858218
677.000000	99.889047
676.000000	99.917637
675.000000	99.899946
674.000000	99.909662
673.000000	99.935765
672.000000	99.991145
671.000000	100.031820
670.000000	100.050880
669.000000	99.962725
668.000000	100.010504
667.000000	100.036365
666.000000	99.967854
665.000000	100.006286
664.000000	99.994849
663.000000	100.019367
662.000000	99.993202
661.000000	100.019677
660.000000	100.010408
659.000000	99.953111
658.000000	100.032990
657.000000	100.047435
656.000000	99.961661
655.000000	99.983716
654.000000	99.998454
653.000000	99.893227
652.000000	99.843555
651.000000	99.891547
650.000000	99.991543
649.000000	99.991646
648.000000	99.948979
647.000000	99.980826
646.000000	99.964430
645.000000	99.924979
644.000000	99.957940
643.000000	100.022786
642.000000	99.952370
641.000000	99.970713
640.000000	100.029488
639.000000	100.015986
638.000000	100.038367
637.000000	100.012881
636.000000	100.067004
635.000000	100.001031
634.000000	100.009691
633.000000	100.048887
632.000000	100.011649
631.000000	99.959308
630.000000	99.961577
629.000000	100.063276
628.000000	99.981968
627.000000	100.005668
626.000000	99.984229
625.000000	100.134671
624.000000	100.111718
623.000000	99.978895
622.000000	99.848259
621.000000	99.977970
620.000000	99.999691
619.000000	100.031090
618.000000	100.005145
617.000000	99.915044
616.000000	100.016260
615.000000	100.066150
614.000000	99.957019
613.000000	99.888065
612.000000	100.034253
611.000000	99.962083
610.000000	99.970408
609.000000	100.004729
608.000000	100.011306
607.000000	100.027320
606.000000	100.045517
605.000000	99.985005
604.000000	99.876366
603.000000	100.038913
602.000000	99.980709
601.000000	100.066282
600.000000	100.008108
599.000000	99.966782
598.000000	99.915267
597.000000	99.980420
596.000000	100.049306
595.000000	100.002356
594.000000	100.013933
593.000000	99.974406
592.000000	100.047919
591.000000	100.045843
590.000000	100.029264
589.000000	100.009103
588.000000	100.017687
587.000000	100.026569
586.000000	100.062020
585.000000	100.039308
584.000000	100.032482
583.000000	100.037355
582.000000	99.956439
581.000000	99.918903
580.000000	99.951181
579.000000	100.075686
578.000000	100.010600
577.000000	99.972915
576.000000	100.034003
575.000000	99.920045
574.000000	99.940398
573.000000	100.056657
572.000000	99.972349
571.000000	99.987504
570.000000	100.017365
569.000000	99.933625
568.000000	100.036934
567.000000	99.929945
566.000000	99.983784
565.000000	100.043075
564.000000	100.021681
563.000000	99.957088
562.000000	99.991303
561.000000	99.923170
560.000000	100.059045
559.000000	100.072344
558.000000	99.944766
557.000000	99.973264
556.000000	99.884431
555.000000	99.916780
554.000000	99.981254
553.000000	100.077490
552.000000	99.986816
551.000000	99.926304
550.000000	99.970658
549.000000	99.991963
548.000000	99.881900
547.000000	100.029708
546.000000	99.956160
545.000000	99.951196
544.000000	100.018234
543.000000	99.957261
542.000000	99.944197
541.000000	99.976108
540.000000	99.979219
539.000000	100.042740
538.000000	100.024443
537.000000	99.914001
536.000000	99.958477
535.000000	100.005277
534.000000	99.993730
533.000000	99.941747
532.000000	99.916452
531.000000	99.989871
530.000000	99.955850
529.000000	99.990677
528.000000	99.985632
527.000000	100.004656
526.000000	99.974563
525.000000	99.920184
524.000000	99.950659
523.000000	100.013442
522.000000	99.974422
521.000000	99.959053
520.000000	99.977816
519.000000	99.959989
518.000000	100.002758
517.000000	99.931197
516.000000	99.942619
515.000000	99.963997
514.000000	99.934634
513.000000	99.968461
512.000000	99.980455
511.000000	99.950208
510.000000	99.975163
509.000000	99.957009
508.000000	99.993720
507.000000	99.911256
506.000000	99.933825
505.000000	99.977262
504.000000	99.933578
503.000000	99.968965
502.000000	99.945091
501.000000	99.937177
500.000000	99.910118
499.000000	99.943381
498.000000	100.033446
497.000000	99.982999
496.000000	99.985448
495.000000	99.918546
494.000000	99.914481
493.000000	99.978645
492.000000	100.015587
491.000000	99.937347
490.000000	99.925626
489.000000	99.995433
488.000000	99.972052
487.000000	99.958216
486.000000	100.009006
485.000000	100.001160
484.000000	99.981754
483.000000	99.916288
482.000000	99.975854
481.000000	99.966393
480.000000	99.949455
479.000000	99.909999
478.000000	99.903015
477.000000	99.955077
476.000000	99.939685
475.000000	99.942141
474.000000	99.959714
473.000000	100.007422
472.000000	99.950214
471.000000	99.978075
470.000000	99.967674
469.000000	99.946778
468.000000	99.953631
467.000000	99.964749
466.000000	99.977627
465.000000	99.976232
464.000000	99.955902
463.000000	99.900333
462.000000	99.953608
461.000000	99.951674
460.000000	99.941767
459.000000	100.006760
458.000000	99.947463
457.000000	99.899911
456.000000	99.899381
455.000000	99.912826
454.000000	99.927854
453.000000	99.956591
452.000000	99.998223
451.000000	99.995139
450.000000	99.931845
449.000000	99.899445
448.000000	99.964100
447.000000	99.910015
446.000000	99.926821
445.000000	99.993578
444.000000	99.972572
443.000000	99.943440
442.000000	99.933752
441.000000	99.904994
440.000000	99.903263
439.000000	99.954206
438.000000	100.020905
437.000000	100.016171
436.000000	99.972220
435.000000	99.944481
434.000000	99.948316
433.000000	99.935506
432.000000	99.947601
431.000000	99.946057
430.000000	99.939844
429.000000	99.937711
428.000000	99.913010
427.000000	99.941366
426.000000	99.915187
425.000000	99.839567
424.000000	99.894654
423.000000	99.957026
422.000000	99.962527
421.000000	99.931677
420.000000	99.969763
419.000000	99.939679
418.000000	99.806723
417.000000	99.851650
416.000000	99.916529
415.000000	99.943347
414.000000	100.009788
413.000000	99.937725
412.000000	99.931900
411.000000	99.947494
410.000000	99.933999
409.000000	100.002617
408.000000	99.973324
407.000000	99.911964
406.000000	99.887145
405.000000	99.912559
404.000000	99.937074
403.000000	99.970627
402.000000	99.963022
401.000000	100.034000
400.000000	100.049158
399.000000	99.973369
398.000000	99.932216
397.000000	99.983539
396.000000	99.951986
395.000000	99.948326
394.000000	100.066511
393.000000	99.852314
392.000000	99.841337
391.000000	99.949615
390.000000	99.917083
389.000000	99.813630
388.000000	99.894025
387.000000	99.915582
386.000000	99.908656
385.000000	99.890038
384.000000	99.837503
383.000000	99.929552
382.000000	99.984189
381.000000	100.001244
380.000000	100.089774
379.000000	100.009055
378.000000	99.802451
377.000000	99.976496
376.000000	99.962928
375.000000	99.981548
374.000000	99.755685
373.000000	99.828532
372.000000	99.548458
371.000000	99.812643
370.000000	99.696497
369.000000	99.986631
368.000000	100.211632
367.000000	100.017297
366.000000	99.979161
365.000000	99.980841
364.000000	99.737737
363.000000	99.934980
362.000000	100.141326
361.000000	99.931596
360.000000	100.085197
359.000000	99.819357
358.000000	99.881011
357.000000	99.857835
356.000000	99.742202
355.000000	100.010921
354.000000	99.928199
353.000000	99.907615
352.000000	99.981170
351.000000	99.852131
350.000000	99.745012
349.000000	99.974369
348.000000	99.889730
347.000000	99.867378
346.000000	99.632652
345.000000	100.049672
344.000000	99.810055
343.000000	99.847431
342.000000	99.883052
341.000000	99.677032
340.000000	99.787737
339.000000	100.388260
338.000000	100.101056
337.000000	99.941008
336.000000	99.815515
335.000000	99.948479
334.000000	99.865441
333.000000	100.092591
332.000000	100.039735
331.000000	99.941422
330.000000	99.566426
329.000000	99.800022
328.000000	100.106680
327.000000	100.093675
326.000000	99.731572
325.000000	100.204576
324.000000	99.782380
323.000000	99.531126
322.000000	100.300305
321.000000	100.402265
320.000000	100.229609
319.000000	99.570907
318.000000	99.986935
317.000000	100.154736
316.000000	99.652601
315.000000	100.191458
314.000000	99.948875
313.000000	99.920103
312.000000	99.588034
311.000000	99.817032
310.000000	100.012042
309.000000	99.838138
308.000000	99.503573
307.000000	100.119484
306.000000	99.809741
305.000000	99.671273
304.000000	99.866084
303.000000	99.949609
302.000000	100.199159
301.000000	99.936623
300.000000	99.868716
299.000000	99.535973
298.000000	99.998071
297.000000	99.658810
296.000000	99.749220
295.000000	99.848222
294.000000	99.927432
293.000000	99.778890
292.000000	99.741433
291.000000	99.813714
290.000000	99.920694
289.000000	99.839812
288.000000	100.161881
287.000000	99.773517
286.000000	99.936005
285.000000	99.768259
284.000000	99.991250
283.000000	99.999355
282.000000	99.893353
281.000000	99.940740
280.000000	100.209800
279.000000	99.988470
278.000000	100.242349
277.000000	99.896235
276.000000	99.890829
275.000000	99.970150
274.000000	99.988052
273.000000	100.117977
272.000000	99.705643
271.000000	99.944002
270.000000	99.853111
269.000000	99.484961
268.000000	99.659471
267.000000	100.121758
266.000000	99.909247
265.000000	99.674479
264.000000	100.184954
263.000000	100.047608
262.000000	99.748467
261.000000	100.139966
260.000000	99.622711
259.000000	99.946685
258.000000	99.841563
257.000000	100.013003
256.000000	100.045849
255.000000	99.810957
254.000000	99.975279
253.000000	100.088164
252.000000	100.007535
251.000000	99.804875
250.000000	99.604455
249.000000	99.761971
248.000000	99.619886
247.000000	99.644040
246.000000	99.721315
245.000000	99.846378
244.000000	99.815570
243.000000	99.532192
242.000000	100.198195
241.000000	100.273059
240.000000	100.199453
239.000000	99.795857
238.000000	99.899017
237.000000	100.180289
236.000000	99.935661
235.000000	100.167276
234.000000	100.142864
233.000000	99.729740
232.000000	99.732235
231.000000	99.866796
230.000000	100.077582
229.000000	99.824253
228.000000	99.890918
227.000000	100.357705
226.000000	100.185093
225.000000	100.230369
224.000000	100.256734
223.000000	99.637268
222.000000	99.794639
221.000000	99.281032
220.000000	99.568054
219.000000	100.086283
218.000000	99.686733
217.000000	99.329404
216.000000	100.088235
215.000000	99.755145
214.000000	100.019265
213.000000	100.095204
212.000000	98.859820
211.000000	99.317143
210.000000	100.495242
209.000000	99.825656
208.000000	99.182981
207.000000	100.220707
206.000000	100.030039
205.000000	99.422501
204.000000	99.538264
203.000000	100.622218
202.000000	99.561409
201.000000	99.180259
200.000000	99.522338
